File: data/historical_price/TGA.csv
Date, Close/Last, Volume, Open, High, Low
01/20/2021, $1.13, 893907, $1.16, $1.18, $1.08
01/14/2021, $1.18, 639576, $1.16, $1.19, $1.1238
01/11/2021, $1.11, 396789, $1.11, $1.2058, $1.09
01/06/2021, $0.99, 507022, $0.9578, $1.05, $0.936
12/31/2020, $0.9614, 402411, $0.96, $0.9758, $0.9167
12/28/2020, $0.946, 241208, $1.01, $1.01, $0.92
12/22/2020, $0.88, 264233, $0.8346, $0.9001, $0.83
12/17/2020, $0.95, 264101, $0.95, $0.9757, $0.92
12/14/2020, $0.9272, 721077, $0.9897, $1.05, $0.906
12/09/2020, $0.9364, 797061, $0.9464, $0.95, $0.883
12/04/2020, $0.73, 2558476, $0.64, $0.75, $0.64
12/01/2020, $0.5012, 167168, $0.53, $0.53, $0.49
11/25/2020, $0.5346, 736982, $0.5, $0.5347, $0.5
11/20/2020, $0.4665, 145781, $0.4689, $0.4789, $0.4602
11/17/2020, $0.42, 304704, $0.4301, $0.44, $0.41
11/12/2020, $0.4332, 65003, $0.436, $0.4421, $0.42
11/09/2020, $0.42, 1091546, $0.4298, $0.455, $0.39
11/04/2020, $0.41, 41884, $0.426, $0.426, $0.397
10/30/2020, $0.3854, 161778, $0.388, $0.3999, $0.3681
10/27/2020, $0.4001, 122344, $0.406, $0.418, $0.4001
10/22/2020, $0.446, 3116283, $0.4468, $0.5348, $0.4101
10/19/2020, $0.4436, 93878, $0.46, $0.475, $0.4418
10/14/2020, $0.4411, 173753, $0.4287, $0.4498, $0.414
10/09/2020, $0.452, 438118, $0.475, $0.475, $0.4311
10/06/2020, $0.398, 248146, $0.3999, $0.4182, $0.3851
10/01/2020, $0.4, 124580, $0.41, $0.41, $0.3837
09/28/2020, $0.3834, 120631, $0.4, $0.405, $0.382
09/23/2020, $0.41, 633580, $0.41, $0.42, $0.38
09/18/2020, $0.4173, 385561, $0.4458, $0.4496, $0.4
09/15/2020, $0.4557, 122451, $0.4552, $0.5, $0.4552
09/10/2020, $0.45, 159382, $0.4614, $0.467, $0.4469
09/04/2020, $0.495, 191761, $0.52, $0.54, $0.4919
09/01/2020, $0.54, 117571, $0.5461, $0.5494, $0.5273
08/27/2020, $0.5452, 249272, $0.5799, $0.58, $0.5331
08/24/2020, $0.522, 140540, $0.56, $0.57, $0.522
08/19/2020, $0.596, 277072, $0.6, $0.6, $0.5625
08/14/2020, $0.587, 82333, $0.6, $0.6, $0.581
08/11/2020, $0.61, 108573, $0.62, $0.6299, $0.58
08/06/2020, $0.6051, 116438, $0.6081, $0.611, $0.6
08/03/2020, $0.5712, 95965, $0.5703, $0.578, $0.56
07/29/2020, $0.59, 113774, $0.5851, $0.5999, $0.5751
07/24/2020, $0.5925, 114607, $0.604, $0.604, $0.5726
07/21/2020, $0.5701, 214624, $0.6, $0.6, $0.5602
07/16/2020, $0.6, 46118, $0.595, $0.6099, $0.59
07/13/2020, $0.6036, 92416, $0.59, $0.6127, $0.59
07/08/2020, $0.625, 140556, $0.6397, $0.6397, $0.6035
07/02/2020, $0.6006, 114923, $0.59, $0.6191, $0.58
06/29/2020, $0.5626, 142636, $0.57, $0.5893, $0.5302
06/24/2020, $0.5768, 87143, $0.54, $0.6122, $0.54
06/19/2020, $0.55, 196314, $0.5603, $0.5904, $0.55
06/16/2020, $0.579, 132375, $0.571, $0.6497, $0.55
06/11/2020, $0.5699, 164259, $0.565, $0.6, $0.54
06/08/2020, $0.71, 521137, $0.704, $0.75, $0.66
06/03/2020, $0.5401, 166413, $0.52, $0.5589, $0.5
05/29/2020, $0.531, 142603, $0.52, $0.531, $0.5049
05/26/2020, $0.5572, 183017, $0.52, $0.5655, $0.51
05/20/2020, $0.5446, 177186, $0.5302, $0.5446, $0.5
05/15/2020, $0.52, 91021, $0.5202, $0.5302, $0.51
05/12/2020, $0.49, 164904, $0.503, $0.5199, $0.467
05/07/2020, $0.5458, 70459, $0.55, $0.5895, $0.54
05/04/2020, $0.55, 134093, $0.565, $0.65, $0.53
04/29/2020, $0.5629, 347571, $0.48, $0.5839, $0.4749
04/24/2020, $0.4529, 128732, $0.4552, $0.5083, $0.4501
04/21/2020, $0.42, 73669, $0.4299, $0.4299, $0.382
04/16/2020, $0.405, 84737, $0.4317, $0.4699, $0.381
04/13/2020, $0.43, 199920, $0.488, $0.504, $0.42
04/07/2020, $0.398, 130275, $0.41, $0.4399, $0.39
04/02/2020, $0.39, 566725, $0.351, $0.41, $0.3408
03/30/2020, $0.36, 196790, $0.4091, $0.4091, $0.3501
03/25/2020, $0.4671, 590231, $0.4282, $0.5333, $0.4
03/20/2020, $0.378, 329389, $0.4, $0.4, $0.34
03/17/2020, $0.457, 52345, $0.5111, $0.5111, $0.41
03/12/2020, $0.5563, 446419, $0.5, $0.6, $0.49
03/09/2020, $0.6923, 884171, $0.8, $0.8, $0.64
03/04/2020, $1.09, 47066, $1.11, $1.12, $1.08
02/28/2020, $1.09, 307225, $1.01, $1.09, $1.01
02/25/2020, $1.18, 165496, $1.21, $1.23, $1.16
02/20/2020, $1.22, 88596, $1.22, $1.24, $1.2
02/14/2020, $1.2, 370122, $1.26, $1.26, $1.19
02/11/2020, $1.23, 64450, $1.26, $1.265, $1.23
02/06/2020, $1.3, 38469, $1.28, $1.31, $1.24
02/03/2020, $1.25, 79346, $1.28, $1.28, $1.22
01/29/2020, $1.24, 36842, $1.267, $1.27, $1.23
01/24/2020, $1.27, 123913, $1.29, $1.36, $1.26
01/21/2020, $1.34, 116699, $1.41, $1.41, $1.32
01/15/2020, $1.36, 78468, $1.395, $1.3999, $1.34
01/10/2020, $1.41, 101726, $1.4, $1.42, $1.3531
01/07/2020, $1.4, 107005, $1.4, $1.42, $1.39
01/02/2020, $1.46, 125664, $1.4, $1.48, $1.3703
12/27/2019, $1.43, 134394, $1.43, $1.47, $1.43
12/23/2019, $1.48, 245270, $1.47, $1.53, $1.47
12/18/2019, $1.3, 115353, $1.28, $1.32, $1.24
12/13/2019, $1.27, 183118, $1.23, $1.3, $1.23
12/10/2019, $1.19, 99420, $1.19, $1.1989, $1.16
12/05/2019, $1.14, 171729, $1.15, $1.1705, $1.13
12/02/2019, $1.12, 163730, $1.11, $1.17, $1.07
11/26/2019, $1.16, 118705, $1.15, $1.17, $1.1287
11/21/2019, $1.14, 103496, $1.15, $1.17, $1.14
11/18/2019, $1.13, 303324, $1.19, $1.19, $1.12
11/13/2019, $1.17, 52422, $1.18, $1.18, $1.16
11/08/2019, $1.23, 72412, $1.23, $1.24, $1.2
11/05/2019, $1.26, 110904, $1.24, $1.28, $1.23
10/31/2019, $1.16, 81277, $1.165, $1.17, $1.15
10/28/2019, $1.2, 138955, $1.2, $1.22, $1.19
10/23/2019, $1.23, 134122, $1.24, $1.27, $1.22
10/18/2019, $1.25, 110842, $1.27, $1.29, $1.24
10/15/2019, $1.29, 74045, $1.29, $1.33, $1.28
10/10/2019, $1.27, 240396, $1.31, $1.3142, $1.25
10/07/2019, $1.32, 33337, $1.31, $1.33, $1.31
10/02/2019, $1.28, 233329, $1.31, $1.315, $1.26
09/27/2019, $1.33, 168757, $1.35, $1.36, $1.32
09/24/2019, $1.39, 107354, $1.41, $1.43, $1.38
09/19/2019, $1.47, 76552, $1.44, $1.49, $1.44
09/16/2019, $1.52, 382457, $1.5, $1.6, $1.49
09/11/2019, $1.48, 152756, $1.5, $1.525, $1.46
09/06/2019, $1.4, 68281, $1.37, $1.43, $1.35
09/03/2019, $1.33, 85877, $1.33, $1.33, $1.29
08/28/2019, $1.35, 99917, $1.34, $1.36, $1.335
08/23/2019, $1.35, 177606, $1.43, $1.43, $1.34
08/20/2019, $1.42, 52251, $1.45, $1.46, $1.4
08/15/2019, $1.44, 149128, $1.43, $1.45, $1.4
08/12/2019, $1.48, 124176, $1.42, $1.48, $1.4
08/07/2019, $1.44, 104840, $1.422, $1.46, $1.38
08/02/2019, $1.46, 98179, $1.52, $1.55, $1.45
07/30/2019, $1.48, 180041, $1.39, $1.49, $1.36
07/25/2019, $1.41, 44812, $1.47, $1.47, $1.41
07/22/2019, $1.43, 132756, $1.46, $1.47, $1.41
07/17/2019, $1.43, 175353, $1.4662, $1.4662, $1.43
07/12/2019, $1.465, 100780, $1.47, $1.48, $1.45
07/09/2019, $1.37, 101651, $1.35, $1.38, $1.34
07/03/2019, $1.36, 33269, $1.37, $1.37, $1.36
06/28/2019, $1.39, 56224, $1.42, $1.42, $1.39
06/25/2019, $1.4, 212954, $1.39, $1.42, $1.38
06/20/2019, $1.45, 250860, $1.42, $1.47, $1.41
06/17/2019, $1.41, 57064, $1.41, $1.43, $1.38
06/12/2019, $1.42, 141939, $1.47, $1.5, $1.4
06/07/2019, $1.55, 81626, $1.51, $1.55, $1.51
06/04/2019, $1.54, 64752, $1.53, $1.55, $1.49
05/30/2019, $1.5, 94541, $1.53, $1.55, $1.5
05/24/2019, $1.51, 135467, $1.52, $1.59, $1.49
05/21/2019, $1.67, 117439, $1.68, $1.72, $1.66
05/16/2019, $1.76, 70216, $1.76, $1.79, $1.75
05/13/2019, $1.77, 79289, $1.79, $1.8, $1.75
05/08/2019, $1.82, 60662, $1.82, $1.86, $1.82
05/03/2019, $1.88, 164531, $1.9, $1.9, $1.84
04/30/2019, $1.95, 58159, $1.95, $1.97, $1.92
04/25/2019, $1.93, 68205, $1.92, $1.9499, $1.9039
04/22/2019, $1.95, 134946, $1.9, $2.01, $1.9
04/16/2019, $1.86, 67529, $1.86, $1.8867, $1.84
04/11/2019, $1.88, 88099, $1.88, $1.97, $1.86
04/08/2019, $1.88, 98794, $1.85, $1.91, $1.85
04/03/2019, $1.8, 76699, $1.87, $1.87, $1.79
03/29/2019, $1.89, 83034, $1.87, $1.95, $1.86
03/26/2019, $1.75, 448275, $1.87, $1.9, $1.72
03/21/2019, $2.09, 124391, $2.13, $2.16, $2.09
03/18/2019, $2.17, 131085, $2.07, $2.19, $2.0697
03/13/2019, $2.08, 93920, $2.11, $2.16, $2.06
03/08/2019, $2.02, 59004, $2.02, $2.06, $1.98
03/05/2019, $2.06, 63581, $2, $2.14, $2
02/28/2019, $1.98, 72475, $2.03, $2.05, $1.98
02/25/2019, $2.04, 52111, $2.07, $2.089, $2.02
02/20/2019, $2.01, 96727, $2.14, $2.185, $1.965
02/14/2019, $2.01, 94357, $1.96, $2.05, $1.96
02/11/2019, $1.85, 50591, $1.83, $1.86, $1.8
02/06/2019, $1.93, 42417, $1.91, $1.96, $1.88
02/01/2019, $1.93, 101705, $1.82, $1.99, $1.82
01/29/2019, $1.73, 257789, $1.8, $1.82, $1.67
01/24/2019, $1.79, 96753, $1.76, $1.86, $1.76
01/18/2019, $1.89, 166542, $1.94, $1.94, $1.84
01/15/2019, $1.96, 55244, $1.96, $2.01, $1.94
01/10/2019, $2.03, 45578, $2.06, $2.06, $2
01/07/2019, $2.07, 182583, $1.93, $2.13, $1.93
01/02/2019, $1.8, 271316, $1.86, $1.94, $1.77
12/27/2018, $1.68, 116338, $1.62, $1.68, $1.58
12/21/2018, $1.58, 257152, $1.61, $1.64, $1.55
12/18/2018, $1.71, 187583, $1.78, $1.78, $1.6983
12/13/2018, $1.86, 146834, $1.89, $1.915, $1.83
12/10/2018, $1.81, 350949, $1.98, $1.98, $1.7954
12/04/2018, $2.13, 138061, $2.18, $2.18, $2.11
11/29/2018, $2.17, 175654, $2.08, $2.19, $2
11/26/2018, $2.17, 263692, $2.14, $2.21, $2.14
11/20/2018, $2.14, 271729, $2.26, $2.3, $2.08
11/15/2018, $2.19, 88066, $2.05, $2.26, $2.05
11/12/2018, $2.11, 279461, $2.16, $2.2, $2.05
11/07/2018, $2.41, 118404, $2.4, $2.51, $2.37
11/02/2018, $2.36, 217971, $2.46, $2.48, $2.31
10/30/2018, $2.31, 537165, $2.28, $2.35, $2.18
10/25/2018, $2.45, 526121, $2.38, $2.5, $2.27
10/22/2018, $2.59, 1288423, $2.97, $3, $2.55
10/17/2018, $3.09, 230143, $3.11, $3.13, $3.01
10/12/2018, $3.1, 399996, $3.05, $3.17, $3.05
10/09/2018, $3.35, 157091, $3.205, $3.41, $3.14
10/04/2018, $3.32, 681829, $3.45, $3.47, $3.28
10/01/2018, $3.52, 466184, $3.35, $3.57, $3.35
09/26/2018, $3.34, 448757, $3.43, $3.44, $3.33
09/21/2018, $3.32, 286338, $3.31, $3.356, $3.23
09/18/2018, $3.39, 365320, $3.56, $3.59, $3.3668
09/13/2018, $3.57, 237828, $3.56, $3.7, $3.54
09/10/2018, $3.51, 942091, $3.25, $3.51, $3.235
09/05/2018, $3.3, 448471, $3.3, $3.37, $3.19
08/30/2018, $3.39, 311118, $3.45, $3.61, $3.35
08/27/2018, $3.465, 231808, $3.49, $3.53, $3.42
08/22/2018, $3.47, 473787, $3.5, $3.58, $3.425
08/17/2018, $3.12, 647208, $3.09, $3.215, $3.07
08/14/2018, $3.14, 2481712, $3.19, $3.5, $2.95
08/09/2018, $3.21, 209262, $3.21, $3.24, $3.13
08/06/2018, $3.09, 430386, $3.2, $3.3, $3.07
08/01/2018, $3.24, 330376, $3.24, $3.3, $3.13
07/27/2018, $3.18, 540226, $3.36, $3.36, $3.135
07/24/2018, $3.37, 674879, $3.37, $3.53, $3.37
07/19/2018, $3.6, 753144, $3.57, $3.7, $3.561
07/16/2018, $3.77, 1695857, $4, $4, $3.67
07/11/2018, $3.76, 2036608, $3.4, $3.92, $3.33
07/06/2018, $2.94, 503533, $2.94, $2.95, $2.86
07/02/2018, $2.73, 303479, $2.76, $2.76, $2.63
06/27/2018, $2.63, 921135, $2.44, $2.68, $2.44
06/22/2018, $2.39, 528325, $2.34, $2.465, $2.2999
06/19/2018, $2.38, 239488, $2.34, $2.41, $2.27
06/14/2018, $2.32, 245596, $2.42, $2.4699, $2.31
06/11/2018, $2.37, 482481, $2.39, $2.42, $2.3
06/06/2018, $2.46, 265957, $2.37, $2.47, $2.3417
06/01/2018, $2.47, 415779, $2.56, $2.58, $2.43
05/29/2018, $2.29, 290185, $2.24, $2.32, $2.131
05/23/2018, $2.44, 686750, $2.21, $2.49, $2.2
05/18/2018, $2.23, 529747, $2.17, $2.27, $2.055
05/15/2018, $1.95, 367486, $1.93, $2.02, $1.9
05/10/2018, $2, 285010, $2.14, $2.14, $1.98
05/07/2018, $1.955, 243615, $1.88, $2.01, $1.88
05/02/2018, $1.865, 179314, $1.84, $1.9266, $1.83
04/27/2018, $1.65, 241543, $1.74, $1.75, $1.63
04/24/2018, $1.58, 270209, $1.56, $1.6315, $1.55
04/19/2018, $1.47, 54620, $1.4, $1.48, $1.4
04/16/2018, $1.4, 42231, $1.35, $1.4, $1.35
04/11/2018, $1.32, 91766, $1.29, $1.34, $1.29
04/06/2018, $1.29, 78377, $1.27, $1.29, $1.2577
04/03/2018, $1.32, 17355, $1.34, $1.34, $1.31
03/28/2018, $1.32, 39364, $1.333, $1.35, $1.31
03/23/2018, $1.45, 33225, $1.46, $1.46, $1.4201
03/20/2018, $1.36, 50424, $1.33, $1.36, $1.33
03/15/2018, $1.35, 19116, $1.33, $1.35, $1.31
03/12/2018, $1.309, 47422, $1.28, $1.32, $1.28
03/07/2018, $1.28, 64872, $1.3, $1.32, $1.27
03/02/2018, $1.25, 79677, $1.28, $1.32, $1.2049
02/27/2018, $1.27, 92636, $1.31, $1.35, $1.27
02/22/2018, $1.3, 77269, $1.299, $1.34, $1.28
02/16/2018, $1.32, 39746, $1.3, $1.35, $1.3
02/13/2018, $1.325, 80965, $1.31, $1.34, $1.31
02/08/2018, $1.3, 123955, $1.37, $1.3752, $1.29
02/05/2018, $1.41, 105792, $1.43, $1.43, $1.35
01/31/2018, $1.47, 118619, $1.4, $1.48, $1.38
01/26/2018, $1.49, 77563, $1.48, $1.51, $1.48
01/23/2018, $1.45, 48978, $1.46, $1.49, $1.441
01/18/2018, $1.47, 59235, $1.45, $1.49, $1.44
01/12/2018, $1.47, 137980, $1.49, $1.49, $1.45
01/09/2018, $1.4499, 135267, $1.45, $1.47, $1.43
01/04/2018, $1.44, 77843, $1.44, $1.4401, $1.4024
12/29/2017, $1.439, 57584, $1.43, $1.44, $1.411
12/26/2017, $1.34, 61026, $1.34, $1.37, $1.3327
12/20/2017, $1.29, 103752, $1.3, $1.34, $1.27
12/15/2017, $1.32, 44585, $1.32, $1.33, $1.301
12/12/2017, $1.38, 39684, $1.36, $1.4, $1.36
12/07/2017, $1.36, 34187, $1.37, $1.38, $1.3437
12/04/2017, $1.445, 101126, $1.46, $1.47, $1.42
11/29/2017, $1.44, 107647, $1.46, $1.46, $1.38
11/24/2017, $1.5, 2674, $1.46, $1.5001, $1.46
11/20/2017, $1.49, 21495, $1.48, $1.49, $1.45
11/15/2017, $1.48, 49253, $1.5, $1.5, $1.43
11/10/2017, $1.5, 54055, $1.5, $1.53, $1.49
11/07/2017, $1.57, 56350, $1.53, $1.57, $1.48
11/02/2017, $1.79, 150327, $1.76, $1.85, $1.74
10/30/2017, $1.66, 101573, $1.6, $1.7, $1.58
10/25/2017, $1.54, 19402, $1.57, $1.58, $1.54
10/20/2017, $1.58, 28926, $1.58, $1.59, $1.53
10/17/2017, $1.58, 112709, $1.58, $1.63, $1.53
10/12/2017, $1.62, 82703, $1.64, $1.64, $1.58
10/09/2017, $1.5101, 58419, $1.52, $1.55, $1.4634
10/04/2017, $1.44, 47707, $1.42, $1.45, $1.4
09/29/2017, $1.435, 101524, $1.38, $1.44, $1.38
09/26/2017, $1.31, 96132, $1.27, $1.33, $1.27
09/21/2017, $1.21, 169862, $1.15, $1.23, $1.15
09/18/2017, $1.12, 289087, $1.1, $1.17, $1.09
09/13/2017, $1.21, 144757, $1.16, $1.25, $1.12
09/08/2017, $1.25, 46695, $1.281, $1.29, $1.25
09/05/2017, $1.3, 34740, $1.3, $1.3328, $1.28
08/30/2017, $1.2575, 23596, $1.28, $1.28, $1.25
08/25/2017, $1.26, 63249, $1.3, $1.3, $1.21
08/22/2017, $1.2, 72648, $1.2, $1.24, $1.17
08/17/2017, $1.2, 67853, $1.24, $1.24, $1.2
08/14/2017, $1.18, 100493, $1.2, $1.21, $1.16
08/09/2017, $1.25, 18672, $1.25, $1.26, $1.24
08/04/2017, $1.25, 36352, $1.27, $1.2992, $1.2331
08/01/2017, $1.34, 6201, $1.35, $1.36, $1.33
07/27/2017, $1.33, 28393, $1.34, $1.36, $1.33
07/24/2017, $1.35, 14522, $1.35, $1.37, $1.35
07/19/2017, $1.36, 126507, $1.364, $1.38, $1.35
07/14/2017, $1.32, 9608, $1.34, $1.34, $1.32
07/11/2017, $1.27, 24742, $1.27, $1.29, $1.26
07/06/2017, $1.31, 13273, $1.31, $1.33, $1.305
06/30/2017, $1.34, 10170, $1.35, $1.35, $1.29
06/27/2017, $1.28, 30562, $1.32, $1.33, $1.27
06/22/2017, $1.28, 28257, $1.27, $1.29, $1.25
06/19/2017, $1.33, 223157, $1.28, $1.39, $1.28
06/14/2017, $1.27, 143673, $1.34, $1.35, $1.24
06/09/2017, $1.37, 61407, $1.36, $1.4, $1.35
06/06/2017, $1.41, 151708, $1.4, $1.43, $1.38
06/01/2017, $1.45, 135888, $1.48, $1.49, $1.45
05/26/2017, $1.49, 43301, $1.5, $1.52, $1.48
05/23/2017, $1.57, 77031, $1.64, $1.64, $1.51
05/18/2017, $1.6, 34075, $1.54, $1.6, $1.53
05/15/2017, $1.62, 157829, $1.51, $1.7, $1.5
05/10/2017, $1.46, 82413, $1.43, $1.4875, $1.43
05/05/2017, $1.4, 42068, $1.37, $1.41, $1.37
05/02/2017, $1.45, 54630, $1.48, $1.49, $1.45
04/27/2017, $1.51, 78408, $1.49, $1.52, $1.46
04/24/2017, $1.49, 32184, $1.53, $1.54, $1.49
04/19/2017, $1.5, 44508, $1.54, $1.54, $1.5
04/13/2017, $1.57, 58751, $1.65, $1.65, $1.57
04/10/2017, $1.61, 71293, $1.6, $1.63, $1.6
04/05/2017, $1.58, 47402, $1.6, $1.62, $1.56
03/31/2017, $1.56, 150846, $1.58, $1.61, $1.56
03/28/2017, $1.54, 59981, $1.5, $1.56, $1.49
03/23/2017, $1.5, 91141, $1.51, $1.53, $1.47
03/20/2017, $1.57, 128061, $1.59, $1.59, $1.485
03/15/2017, $1.55, 196761, $1.5, $1.56, $1.5
03/10/2017, $1.64, 46950, $1.604, $1.64, $1.59
03/07/2017, $1.6, 91551, $1.58, $1.61, $1.58
03/02/2017, $1.65, 84817, $1.67, $1.68, $1.63
02/27/2017, $1.68, 65612, $1.67, $1.68, $1.64
02/22/2017, $1.7, 117978, $1.77, $1.7793, $1.7
02/16/2017, $1.73, 62738, $1.75, $1.8, $1.73
02/13/2017, $1.84, 93623, $1.69, $1.85, $1.69
02/08/2017, $1.66, 56563, $1.68, $1.75, $1.65
02/03/2017, $1.72, 52463, $1.73, $1.78, $1.72
01/31/2017, $1.68, 139125, $1.75, $1.75, $1.6599
01/26/2017, $1.78, 86060, $1.74, $1.8, $1.74
01/23/2017, $1.71, 71881, $1.72, $1.74, $1.7
01/18/2017, $1.72, 35401, $1.78, $1.78, $1.72
01/12/2017, $1.78, 32189, $1.8, $1.83, $1.76
01/09/2017, $1.74, 69964, $1.8, $1.8, $1.73
01/04/2017, $1.84, 130790, $1.81, $1.86, $1.79
12/29/2016, $1.68, 56615, $1.69, $1.72, $1.68
12/23/2016, $1.68, 79083, $1.6784, $1.7, $1.6501
12/20/2016, $1.7, 191459, $1.66, $1.72, $1.65
12/15/2016, $1.65, 213227, $1.7, $1.74, $1.63
12/12/2016, $1.77, 282802, $1.78, $1.89, $1.76
12/07/2016, $1.695, 203058, $1.7, $1.76, $1.6715
12/02/2016, $1.89, 104537, $1.947, $1.96, $1.84
11/29/2016, $1.7, 109093, $1.75, $1.77, $1.68
11/23/2016, $1.78, 47504, $1.77, $1.82, $1.7262
11/18/2016, $1.81, 15488, $1.76, $1.83, $1.72
11/15/2016, $1.81, 33039, $1.79, $1.86, $1.79
11/10/2016, $1.81, 47356, $1.82, $1.87, $1.78
11/07/2016, $1.81, 42166, $1.8, $1.89, $1.781
11/02/2016, $1.8, 67015, $1.78, $1.82, $1.76
10/28/2016, $1.84, 19018, $1.85, $1.88, $1.83
10/25/2016, $1.93, 130735, $1.96, $1.96, $1.85
10/20/2016, $2.05, 17124, $2.05, $2.09, $2.04
10/17/2016, $2.09, 102990, $2.11, $2.12, $2.06
10/12/2016, $2.08, 15855, $2.07, $2.12, $2.05
10/07/2016, $2.04, 34543, $2.1, $2.14, $2.02
10/04/2016, $2, 111012, $1.973, $2.061, $1.96
09/29/2016, $1.95, 60242, $1.97, $2, $1.93
09/26/2016, $1.87, 120266, $1.92, $1.94, $1.85
09/21/2016, $2.01, 77796, $1.97, $2.02, $1.95
09/16/2016, $1.93, 58359, $1.93, $1.95, $1.88
09/13/2016, $1.96, 73551, $2.06, $2.07, $1.92
09/08/2016, $1.97, 90631, $1.98, $1.99, $1.96
09/02/2016, $1.9, 32262, $1.91, $1.93, $1.87
08/30/2016, $1.87, 43897, $1.81, $1.9, $1.81
08/25/2016, $1.92, 33533, $1.89, $1.94, $1.88
08/22/2016, $1.89, 133042, $1.99, $1.99, $1.865
08/17/2016, $2, 157007, $1.95, $2.056, $1.91
08/12/2016, $1.92, 148750, $2, $2.03, $1.87
08/09/2016, $1.6, 81707, $1.61, $1.64, $1.59
08/04/2016, $1.61, 53902, $1.56, $1.65, $1.55
08/01/2016, $1.67, 46406, $1.63, $1.7, $1.6101
07/27/2016, $1.63, 31108, $1.72, $1.72, $1.6
07/22/2016, $1.71, 40306, $1.75, $1.75, $1.7
07/19/2016, $1.75, 16400, $1.79, $1.81, $1.73
07/14/2016, $1.82, 29490, $1.76, $1.82, $1.75
07/11/2016, $1.69, 41357, $1.8, $1.8, $1.69
07/06/2016, $1.74, 65602, $1.77, $1.78, $1.7
06/30/2016, $1.83, 94385, $1.84, $1.88, $1.75
06/27/2016, $1.75, 68919, $1.8, $1.8, $1.65
06/22/2016, $1.83, 116055, $1.72, $1.89, $1.72
06/17/2016, $1.65, 40029, $1.62, $1.69, $1.62
06/14/2016, $1.66, 92783, $1.72, $1.75, $1.65
06/09/2016, $1.83, 66685, $1.79, $1.86, $1.77
06/06/2016, $1.73, 82282, $1.75, $1.7625, $1.7
06/01/2016, $1.73, 199990, $1.7, $1.73, $1.64
05/26/2016, $1.78, 45649, $1.77, $1.78, $1.74
05/23/2016, $1.78, 81185, $1.75, $1.83, $1.7
05/18/2016, $1.86, 74402, $1.92, $1.96, $1.8
05/13/2016, $1.92, 77156, $1.97, $1.98, $1.92
05/10/2016, $1.94, 133251, $1.87, $1.95, $1.8555
05/05/2016, $1.86, 59428, $1.92, $1.92, $1.835
05/02/2016, $1.935, 45850, $1.92, $1.95, $1.89
04/27/2016, $1.99, 124964, $2.02, $2.03, $1.95
04/22/2016, $1.92, 51870, $1.88, $1.99, $1.88
04/19/2016, $1.91, 102078, $1.81, $1.93, $1.81
04/14/2016, $1.76, 48353, $1.8, $1.8, $1.75
04/11/2016, $1.73, 136662, $1.76, $1.78, $1.7
04/06/2016, $1.6641, 86061, $1.65, $1.7, $1.63
04/01/2016, $1.69, 43968, $1.62, $1.7, $1.62
03/29/2016, $1.63, 113449, $1.62, $1.63, $1.59
03/23/2016, $1.64, 61777, $1.66, $1.69, $1.64
03/18/2016, $1.69, 137962, $1.7199, $1.7411, $1.6404
03/15/2016, $1.62, 79597, $1.65, $1.654, $1.597
03/10/2016, $1.69, 130381, $1.57, $1.71, $1.57
03/07/2016, $1.81, 315464, $1.74, $1.85, $1.68
03/02/2016, $1.499, 111674, $1.46, $1.5399, $1.46
02/26/2016, $1.44, 110820, $1.53, $1.53, $1.43
02/23/2016, $1.31, 88995, $1.42, $1.42, $1.3
02/18/2016, $1.41, 77506, $1.42, $1.45, $1.32
02/12/2016, $1.23, 169230, $1.23, $1.32, $1.19
02/09/2016, $1.21, 126834, $1.19, $1.26, $1.18
02/04/2016, $1.31, 151994, $1.28, $1.36, $1.27
02/01/2016, $1.37, 41362, $1.4, $1.41, $1.34
01/27/2016, $1.35, 144587, $1.24, $1.36, $1.24
01/22/2016, $1.22, 329187, $1.17, $1.24, $1.15
01/19/2016, $1.12, 442963, $1.22, $1.22, $1.1
01/13/2016, $1.25, 216396, $1.38, $1.3939, $1.23
01/08/2016, $1.66, 207452, $1.64, $1.72, $1.56
01/05/2016, $1.76, 30315, $1.76, $1.79, $1.75
12/30/2015, $1.78, 171806, $1.71, $1.79, $1.7
12/24/2015, $1.67, 29710, $1.79, $2.0999, $1.67
12/21/2015, $1.69, 114247, $1.68, $1.71, $1.64
12/16/2015, $1.55, 447473, $1.62, $1.63, $1.51
12/11/2015, $1.66, 109801, $1.67, $1.71, $1.64
12/08/2015, $1.77, 307971, $1.78, $1.79, $1.7115
12/03/2015, $2.17, 166859, $2.11, $2.2, $2.09
11/30/2015, $2.02, 642902, $1.99, $2.055, $1.95
11/24/2015, $2.09, 161794, $2.05, $2.12, $2
11/19/2015, $2.03, 380393, $1.96, $2.11, $1.96
11/16/2015, $2.02, 505992, $2.16, $2.24, $1.99
11/11/2015, $2.49, 219102, $2.68, $2.68, $2.49
11/06/2015, $2.72, 57135, $2.72, $2.75, $2.69
11/03/2015, $2.73, 189903, $2.7, $2.79, $2.6801
10/29/2015, $2.65, 122733, $2.64, $2.795, $2.64
10/26/2015, $2.56, 230555, $2.67, $2.67, $2.56
10/21/2015, $2.65, 63239, $2.72, $2.74, $2.62
10/16/2015, $2.73, 230959, $2.84, $2.84, $2.67
10/13/2015, $2.77, 196788, $2.83, $2.88, $2.76
10/08/2015, $3.06, 183186, $2.95, $3.07, $2.87
10/05/2015, $2.82, 94709, $2.84, $2.94, $2.81
09/30/2015, $2.64, 87321, $2.61, $2.685, $2.55
09/25/2015, $2.63, 179413, $2.71, $2.71, $2.53
09/22/2015, $2.89, 73821, $2.72, $2.9, $2.71
09/17/2015, $2.85, 76430, $2.86, $2.93, $2.81
09/14/2015, $2.68, 110148, $2.72, $2.72, $2.577
09/09/2015, $2.64, 181416, $2.82, $2.97, $2.64
09/03/2015, $2.8, 248541, $2.85, $2.93, $2.74
08/31/2015, $3.41, 273075, $3.21, $3.46, $3.1
08/26/2015, $2.86, 181759, $2.72, $2.87, $2.66
08/21/2015, $2.67, 155955, $2.67, $2.768, $2.63
08/18/2015, $2.83, 79824, $2.81, $2.96, $2.8
08/13/2015, $2.96, 253024, $3.09, $3.11, $2.9
08/10/2015, $3.03, 193635, $2.85, $3.08, $2.83
08/05/2015, $2.88, 177023, $3, $3.11, $2.88
07/31/2015, $2.96, 159965, $2.99, $3.08, $2.91
07/28/2015, $2.88, 153913, $2.83, $2.95, $2.81
07/23/2015, $2.93, 248143, $3.13, $3.2, $2.93
07/20/2015, $3.02, 144649, $3.2, $3.21, $3.02
07/15/2015, $3.59, 87583, $3.55, $3.66, $3.5
07/10/2015, $3.62, 130815, $3.76, $3.81, $3.615
07/07/2015, $3.7, 162826, $3.704, $3.76, $3.55
07/01/2015, $3.87, 154879, $3.95, $3.99, $3.77
06/26/2015, $4.03, 67383, $4.02, $4.1, $4.02
06/23/2015, $4.07, 560622, $3.72, $4.18, $3.72
06/18/2015, $3.88, 84665, $3.98, $3.99, $3.88
06/15/2015, $3.89, 220203, $3.92, $3.97, $3.89
06/10/2015, $4.16, 161748, $4.24, $4.265, $4.11
06/05/2015, $4.08, 91420, $3.96, $4.1, $3.94
06/02/2015, $4.14, 113152, $4.07, $4.2, $4.07
05/28/2015, $3.94, 176396, $3.97, $4.01, $3.89
05/22/2015, $4.12, 198098, $4.17, $4.26, $4.08
05/19/2015, $4.07, 378495, $4.1, $4.1, $3.93
05/14/2015, $4.04, 155316, $4.15, $4.205, $4.04
05/11/2015, $4.08, 215812, $4.26, $4.26, $4.05
05/06/2015, $4.57, 294136, $4.62, $4.67, $4.5
05/01/2015, $4.64, 299118, $4.57, $4.66, $4.42
04/28/2015, $4.37, 278470, $4.4, $4.43, $4.24
04/23/2015, $4.48, 398584, $4.35, $4.511, $4.33
04/20/2015, $4.33, 224632, $4.28, $4.44, $4.25
04/15/2015, $4.29, 391485, $4.07, $4.41, $4.05
04/10/2015, $4.09, 382281, $3.96, $4.12, $3.96
04/07/2015, $3.92, 268421, $4.03, $4.03, $3.9
04/01/2015, $3.7, 238659, $3.55, $3.75, $3.55
03/27/2015, $3.55, 435383, $3.45, $3.62, $3.41
03/24/2015, $3.28, 244407, $3.3, $3.36, $3.25
03/19/2015, $3.15, 504041, $2.92, $3.23, $2.92
03/16/2015, $2.74, 341146, $2.81, $2.81, $2.72
03/11/2015, $2.98, 174404, $2.88, $3.015, $2.88
03/06/2015, $2.99, 354405, $3.03, $3.045, $2.97
03/03/2015, $3.02, 174471, $3, $3.0875, $2.96
02/26/2015, $2.89, 214147, $2.96, $3.04, $2.89
02/23/2015, $2.94, 336710, $2.97, $3.01, $2.89
02/18/2015, $3.18, 127868, $3.2, $3.25, $3.15
02/12/2015, $3.26, 321518, $3.19, $3.33, $3.16
02/09/2015, $3.34, 314068, $3.23, $3.4, $3.21
02/04/2015, $3.07, 277830, $3.26, $3.26, $2.95
01/30/2015, $2.91, 286247, $2.75, $2.95, $2.7101
01/27/2015, $2.94, 217510, $2.87, $3.07, $2.87
01/22/2015, $2.99, 338592, $3.03, $3.039, $2.88
01/16/2015, $3.03, 957690, $2.76, $3.07, $2.76
01/13/2015, $2.88, 398914, $2.95, $3.02, $2.83
01/08/2015, $3.51, 415670, $3.52, $3.7, $3.46
01/05/2015, $3.77, 530061, $4.06, $4.06, $3.55
12/30/2014, $3.78, 249374, $3.66, $3.8, $3.58
12/24/2014, $3.57, 83364, $3.55, $3.68, $3.48
12/19/2014, $3.7, 407962, $3.34, $3.74, $3.31
12/16/2014, $3.03, 284392, $2.89, $3.15, $2.86
12/11/2014, $2.93, 457270, $3.01, $3.12, $2.88
12/08/2014, $3.17, 846627, $3.34, $3.34, $3.03
12/03/2014, $3.29, 355971, $3.17, $3.48, $3.17
11/28/2014, $3.255, 455369, $3.44, $3.44, $3.209
11/24/2014, $3.82, 227212, $4.08, $4.08, $3.73
11/19/2014, $3.73, 229594, $3.9, $3.91, $3.71
11/14/2014, $3.96, 217515, $3.85, $3.98, $3.75
11/11/2014, $4.13, 153187, $4.03, $4.16, $3.933
11/06/2014, $4.16, 189505, $3.97, $4.19, $3.94
11/03/2014, $4.18, 193866, $4.36, $4.36, $4.17
10/29/2014, $4.55, 161380, $4.58, $4.71, $4.5
10/24/2014, $4.77, 124874, $4.8, $4.82, $4.66
10/21/2014, $4.94, 328009, $4.96, $5.08, $4.93
10/16/2014, $5.06, 214429, $4.82, $5.11, $4.7
10/13/2014, $5.25, 206576, $5.07, $5.37, $5.01
10/08/2014, $5.39, 248860, $5.39, $5.45, $5.19
10/03/2014, $5.55, 224827, $5.65, $5.74, $5.5
09/30/2014, $6.08, 62436, $6.21, $6.25, $5.98
09/25/2014, $5.83, 102633, $5.9, $5.9, $5.81
09/22/2014, $6.01, 263645, $6.2, $6.23, $5.99
09/17/2014, $6.5, 78057, $6.57, $6.61, $6.48
09/12/2014, $6.29, 108364, $6.21, $6.33, $6.2
09/09/2014, $6.26, 213372, $6.29, $6.37, $6.15
09/04/2014, $6.53, 173233, $6.82, $6.84, $6.5
08/29/2014, $6.78, 157692, $6.77, $6.815, $6.71
08/26/2014, $6.7, 184469, $6.64, $6.84, $6.64
08/21/2014, $6.49, 200011, $6.356, $6.51, $6.31
08/18/2014, $6.28, 271826, $6.53, $6.53, $6.23
08/13/2014, $6.51, 421503, $6, $6.58, $6
08/08/2014, $6.37, 158551, $6.16, $6.42, $6.09
08/05/2014, $6.1, 103464, $6.22, $6.27, $6.08
07/31/2014, $6.27, 118874, $6.43, $6.43, $6.24
07/28/2014, $6.68, 157790, $6.69, $6.7, $6.58
07/23/2014, $6.72, 134864, $6.73, $6.79, $6.64
07/18/2014, $6.64, 45818, $6.57, $6.6794, $6.54
07/15/2014, $6.55, 102705, $6.81, $6.81, $6.55
07/10/2014, $6.94, 123529, $7.03, $7.05, $6.86
07/07/2014, $7.38, 268440, $7.2, $7.43, $7.05
07/01/2014, $7.47, 36520, $7.55, $7.58, $7.47
06/26/2014, $7.2, 45656, $7.14, $7.25, $7.13
06/23/2014, $7.48, 197322, $7.59, $7.65, $7.43
06/18/2014, $7.11, 61010, $7.17, $7.22, $7.11
06/13/2014, $7.19, 52334, $7.18, $7.23, $7.14
06/10/2014, $7.19, 68938, $7.25, $7.25, $7.1
06/05/2014, $7.03, 58516, $6.94, $7.08, $6.84
06/02/2014, $6.98, 269104, $6.87, $7, $6.87
05/28/2014, $6.66, 56162, $6.74, $6.8, $6.65
05/22/2014, $6.61, 51751, $6.62, $6.77, $6.57
05/19/2014, $6.59, 79130, $6.49, $7.018, $6.49
05/14/2014, $6.62, 70506, $6.69, $6.74, $6.58
05/09/2014, $6.72, 274845, $6.91, $6.91, $6.5
05/06/2014, $8.22, 79478, $8.15, $8.28, $8.08
05/01/2014, $7.65, 71316, $7.77, $7.9488, $7.57
04/28/2014, $7.86, 105646, $7.91, $7.91, $7.8
04/23/2014, $7.56, 164924, $7.97, $8.0104, $7.5
04/17/2014, $7.88, 149445, $7.59, $7.99, $7.59
04/14/2014, $7.42, 234976, $7.39, $7.51, $7.35
04/09/2014, $7.55, 67485, $7.43, $7.62, $7.42
04/04/2014, $7.62, 56402, $7.76, $7.77, $7.61
04/01/2014, $7.62, 106230, $7.6, $7.64, $7.44
03/27/2014, $7.61, 196918, $7.33, $7.71, $7.32
03/24/2014, $7.69, 256171, $7.41, $7.7, $7.26
03/19/2014, $7.41, 256930, $7.55, $7.77, $7.36
03/14/2014, $7.58, 121471, $7.36, $7.61, $7.35
03/11/2014, $7.54, 105884, $7.72, $7.78, $7.53
03/06/2014, $7.82, 107514, $7.78, $7.96, $7.7
03/03/2014, $7.49, 84532, $7.39, $7.54, $7.35
02/26/2014, $7.34, 63359, $7.42, $7.49, $7.31
02/21/2014, $7.36, 117643, $7.15, $7.4, $7.09
02/18/2014, $7.28, 95170, $7.32, $7.3825, $7.25
02/12/2014, $7.22, 100968, $7.12, $7.28, $7.12
02/07/2014, $7.19, 84336, $7.24, $7.35, $7.09
02/04/2014, $6.78, 472036, $6.87, $7.28, $6.33
01/30/2014, $7.43, 201757, $7.6, $7.6, $7.32
01/27/2014, $7.94, 190926, $8.38, $8.38, $7.8595
01/22/2014, $8.29, 103807, $8.38, $8.43, $8.2
01/16/2014, $8.52, 122353, $8.64, $8.65, $8.34
01/13/2014, $8.2, 220930, $8.04, $8.25, $8.03
01/08/2014, $8.31, 119902, $8.48, $8.51, $8.27
01/03/2014, $8.3, 57731, $8.36, $8.45, $8.28
12/30/2013, $8.28, 103381, $8.32, $8.39, $8.22
12/24/2013, $8.37, 144299, $8.35, $8.39, $8.13
12/19/2013, $8.43, 159131, $8.38, $8.475, $8.29
12/16/2013, $8.72, 124671, $8.57, $8.76, $8.57
12/11/2013, $8.62, 172409, $8.88, $8.92, $8.56
12/06/2013, $9.16, 75909, $9.22, $9.2899, $9.06
12/03/2013, $8.81, 120576, $8.72, $8.83, $8.67
11/27/2013, $8.66, 77968, $8.7, $8.73, $8.63
11/22/2013, $8.82, 50130, $8.92, $8.92, $8.68
11/19/2013, $8.67, 113781, $8.55, $8.79, $8.55
11/14/2013, $8.72, 106677, $8.95, $8.95, $8.64
11/11/2013, $9.01, 160772, $9, $9.04, $8.86
11/06/2013, $9.19, 174320, $9.59, $9.59, $9.1
11/01/2013, $8.87, 81566, $9.05, $9.06, $8.83
10/29/2013, $9.12, 77209, $9.31, $9.3399, $9.07
10/24/2013, $9.08, 105026, $9.23, $9.2476, $9.06
10/21/2013, $9.29, 336918, $9.5, $9.5, $9.24
10/16/2013, $9.02, 88942, $8.95, $9.08, $8.93
10/11/2013, $8.93, 71909, $9.05, $9.05, $8.845
10/08/2013, $8.84, 87040, $9.05, $9.13, $8.84
10/03/2013, $8.52, 193923, $8.12, $8.54, $8.07
09/30/2013, $7.861, 181101, $7.82, $7.95, $7.75
09/25/2013, $7.8, 82122, $7.78, $8.0295, $7.74
09/20/2013, $7.66, 98840, $7.78, $7.79, $7.54
09/17/2013, $7.87, 224916, $7.7, $7.99, $7.6946
09/12/2013, $7.33, 42108, $7.36, $7.47, $7.3135
09/09/2013, $7.21, 36270, $7.35, $7.35, $7.19
09/04/2013, $7.09, 43274, $7.04, $7.16, $7.02
08/29/2013, $6.65, 69767, $6.69, $6.71, $6.56
08/26/2013, $6.95, 56400, $7.02, $7.135, $6.92
08/21/2013, $6.68, 49809, $6.7, $6.8175, $6.66
08/16/2013, $6.6, 45606, $6.45, $6.6, $6.36
08/13/2013, $6.6, 112764, $6.51, $6.6299, $6.36
08/08/2013, $7, 65084, $7, $7.04, $6.89
08/05/2013, $7.28, 261216, $6.68, $7.35, $6.56
07/31/2013, $6.66, 100256, $6.3, $6.73, $6.3
07/26/2013, $6.36, 75662, $6.4, $6.4, $6.2
07/23/2013, $6.2, 31252, $6.18, $6.3, $6.13
07/18/2013, $6.18, 56188, $6.13, $6.19, $6.09
07/15/2013, $6.08, 60464, $6, $6.12, $6
07/10/2013, $5.74, 126058, $5.86, $5.86, $5.73
07/05/2013, $6.1, 61205, $6.31, $6.31, $6.06
07/01/2013, $6.3, 89915, $6.15, $6.4, $6.15
06/26/2013, $5.9, 101170, $5.7, $5.92, $5.7
06/21/2013, $5.8, 190671, $6.24, $6.24, $5.63
06/18/2013, $7.06, 38421, $7.1, $7.11, $7.05
06/13/2013, $7.17, 32400, $7.05, $7.1999, $7.05
06/10/2013, $7.17, 35866, $7.18, $7.23, $7.12
06/05/2013, $7.15, 69907, $7.21, $7.31, $7.05
05/31/2013, $7.37, 63756, $7.59, $7.63, $7.32
05/28/2013, $7.37, 83402, $7.48, $7.48, $7.275
05/22/2013, $7.45, 69761, $7.57, $7.7, $7.45
05/17/2013, $7.41, 58176, $7.39, $7.49, $7.39
05/14/2013, $7.97, 46844, $8.02, $8.02, $7.88
05/09/2013, $8.34, 73379, $8.22, $8.56, $8.2
05/06/2013, $8.35, 129156, $8.18, $8.54, $8.13
05/01/2013, $7.74, 54667, $7.83, $7.92, $7.7
04/26/2013, $7.93, 51708, $8.11, $8.11, $7.78
04/23/2013, $7.57, 53804, $7.29, $7.65, $7.225
04/18/2013, $7.04, 79282, $6.98, $7.15, $6.875
04/15/2013, $7.35, 146045, $7.71, $7.78, $7.3299
04/10/2013, $7.66, 96007, $7.61, $7.79, $7.55
04/05/2013, $7.47, 128183, $7.66, $7.66, $7.4
04/02/2013, $8.04, 142779, $8.34, $8.34, $8.02
03/27/2013, $8.58, 13787, $8.57, $8.61, $8.53
03/22/2013, $8.68, 46161, $8.81, $8.86, $8.67
03/19/2013, $8.99, 64007, $9.01, $9.084, $8.96
03/14/2013, $9.01, 88463, $8.92, $9.06, $8.88
03/11/2013, $8.96, 87108, $8.93, $9.0629, $8.86
03/06/2013, $8.55, 78117, $8.49, $8.65, $8.47
03/01/2013, $8, 50471, $7.86, $8.02, $7.85
02/26/2013, $7.78, 121772, $8.09, $8.12, $7.77
02/21/2013, $7.62, 156307, $7.65, $7.67, $7.37
02/15/2013, $8.2, 111551, $8.29, $8.41, $8.12
02/12/2013, $8.75, 58553, $8.77, $8.78, $8.61
02/07/2013, $8.8, 97546, $8.8, $8.92, $8.76
02/04/2013, $8.67, 60096, $8.66, $8.73, $8.65
01/30/2013, $8.44, 51929, $8.45, $8.56, $8.33
01/25/2013, $8.53, 126036, $8.35, $8.55, $8.25
01/22/2013, $8.67, 103341, $8.8, $8.8288, $8.64
01/16/2013, $8.6, 167475, $8.46, $8.65, $8.22
01/11/2013, $8.98, 337632, $9.45, $9.5, $8.66
01/08/2013, $9.02, 131795, $9.22, $9.25, $8.98
01/03/2013, $9.41, 121392, $9.64, $9.64, $9.3544
12/28/2012, $9.34, 56547, $9.28, $9.46, $9.28
12/24/2012, $9.62, 32140, $9.58, $9.6799, $9.58
12/19/2012, $9.73, 566002, $9.74, $9.96, $9.63
12/14/2012, $9.64, 99745, $9.42, $9.73, $9.42
12/11/2012, $9.9, 36944, $9.84, $10.08, $9.8
12/06/2012, $9.84, 117281, $10.09, $10.15, $9.65
12/03/2012, $10.25, 125267, $10.41, $10.41, $10.21
11/28/2012, $10.31, 82410, $10.24, $10.5, $10.04
11/23/2012, $11.27, 26008, $11.09, $11.28, $11.08
11/19/2012, $11.26, 75224, $10.89, $11.43, $10.81
11/14/2012, $10.98, 77532, $11.45, $11.45, $10.97
11/09/2012, $11.63, 89226, $11.79, $11.79, $11.37
11/06/2012, $12.2, 187919, $11.96, $12.58, $11.94
11/01/2012, $11.01, 36005, $10.78, $11.22, $10.77
10/25/2012, $10.75, 41785, $11.14, $11.14, $10.7
10/22/2012, $11.32, 79874, $11.26, $11.48, $11.23
10/17/2012, $11.68, 85339, $11.44, $11.7, $11.23
10/12/2012, $11.25, 46826, $11.11, $11.36, $11.08
10/09/2012, $11.21, 45562, $11.1, $11.27, $11.08
10/04/2012, $11.13, 34958, $11.12, $11.22, $11.09
10/01/2012, $11.45, 115208, $10.99, $11.47, $10.9
09/26/2012, $10.34, 131355, $10.56, $10.56, $10.17
09/21/2012, $11.32, 118457, $11.82, $11.82, $11.12
09/18/2012, $11.85, 129951, $11.73, $12.01, $11.71
09/13/2012, $11.78, 276579, $11.39, $11.83, $11.32
09/10/2012, $11.73, 130242, $11.93, $12.14, $11.7
09/05/2012, $10.85, 133213, $10.21, $10.94, $10.21
08/30/2012, $10.26, 114967, $10.46, $10.54, $10.23
08/27/2012, $10.49, 43880, $10.61, $10.6399, $10.46
08/22/2012, $10.81, 81531, $10.79, $10.87, $10.69
08/17/2012, $10.4, 127249, $9.91, $10.42, $9.91
08/14/2012, $9.41, 43075, $9.48, $9.53, $9.38
08/09/2012, $9.685, 156958, $8.86, $9.9, $8.86
08/06/2012, $9.44, 39108, $9.27, $9.45, $9.25
08/01/2012, $9.36, 108407, $9.68, $9.77, $9.33
07/27/2012, $10.05, 325026, $9.26, $10.32, $9.26
07/24/2012, $8.76, 76297, $8.75, $8.87, $8.63
07/19/2012, $8.93, 63179, $8.94, $9.13, $8.9
07/16/2012, $8.79, 74353, $9, $9.02, $8.6799
07/11/2012, $8.845, 86145, $8.83, $8.97, $8.77
07/06/2012, $8.87, 154325, $8.78, $9.04, $8.7
07/02/2012, $8.8, 59781, $8.95, $9.05, $8.64
06/27/2012, $8.03, 173670, $8.08, $8.1, $7.8
06/22/2012, $8.23, 89736, $7.99, $8.25, $7.83
06/19/2012, $9.45, 84911, $9.41, $9.66, $9.24
06/14/2012, $9.59, 193887, $9.86, $10.07, $9.52
06/11/2012, $9.9, 199913, $9.87, $10.06, $9.725
06/06/2012, $9.71, 138404, $9.69, $10.1, $9.63
06/01/2012, $9.53, 140428, $9.99, $9.99, $9.39
05/29/2012, $10.54, 89157, $10.63, $11.18, $10.5
05/23/2012, $10.41, 111344, $10.42, $10.48, $10.07
05/18/2012, $10.07, 108936, $10.17, $10.41, $10.04
05/15/2012, $10.84, 102999, $11.15, $11.24, $10.81
05/10/2012, $11.83, 104289, $11.8, $12.01, $11.65
05/07/2012, $12.29, 410217, $12.96, $13.05, $11.52
05/02/2012, $14.16, 68686, $14.4, $14.4, $14.1
04/27/2012, $13.87, 125620, $13.97, $14, $13.8
04/24/2012, $12.99, 52394, $13.26, $13.28, $12.95
04/19/2012, $13.37, 92106, $12.99, $13.4, $12.95
04/16/2012, $12.76, 193095, $13.37, $13.37, $12.65
04/11/2012, $13.1, 198563, $12.47, $13.15, $12.38
04/05/2012, $12.47, 76281, $12.31, $12.64, $12.31
04/02/2012, $12.43, 84622, $12.09, $12.46, $12.04
03/28/2012, $12.33, 145203, $12.37, $12.5, $12.25
03/23/2012, $12.02, 102850, $11.6, $12.02, $11.6
03/20/2012, $11.67, 46624, $11.68, $11.7699, $11.6
03/15/2012, $11.99, 77699, $11.87, $12.12, $11.83
03/12/2012, $11.6, 84174, $11.72, $11.73, $11.46
03/07/2012, $11.28, 109578, $11.34, $11.35, $11.12
03/02/2012, $11.59, 86095, $11.59, $11.69, $11.47
02/28/2012, $11.25, 135629, $11.19, $11.29, $11.02
02/23/2012, $10.75, 60859, $10.46, $10.78, $10.41
02/17/2012, $10.71, 97738, $10.49, $10.78, $10.44
02/14/2012, $10.19, 104803, $10.43, $10.64, $10.13
02/09/2012, $10.3, 113781, $10.4, $10.46, $10.27
02/06/2012, $10.18, 86002, $10.07, $10.19, $9.91
02/01/2012, $10.46, 216713, $9.83, $10.66, $9.7
01/27/2012, $9.41, 79856, $9.4, $9.52, $9.34
01/24/2012, $9.48, 96389, $9.64, $9.8118, $9.48
01/19/2012, $9.21, 151280, $8.97, $9.39, $8.9
01/13/2012, $8.65, 92211, $8.9, $8.96, $8.59
01/10/2012, $9.28, 165635, $9.24, $9.5, $9.19
01/05/2012, $8.73, 181502, $8.1, $8.78, $8.1
12/30/2011, $7.9, 54163, $7.8, $7.92, $7.77
12/27/2011, $8.07, 62381, $7.9, $8.07, $7.81
12/21/2011, $7.91, 128417, $7.86, $8.01, $7.71
12/16/2011, $7.1, 93588, $6.94, $7.12, $6.94
12/13/2011, $7.01, 270156, $7.56, $7.59, $6.87
12/08/2011, $7.56, 128886, $7.91, $8.05, $7.5
12/05/2011, $8.26, 117961, $8.48, $8.5299, $8.16
11/30/2011, $8.15, 121534, $8.38, $8.48, $8.04
11/25/2011, $7.4, 77759, $7.4, $7.5699, $7.31
11/21/2011, $7.91, 192966, $8.32, $8.32, $7.81
11/16/2011, $9.17, 108096, $9.27, $9.5, $9.12
11/11/2011, $9.72, 114308, $9.43, $9.82, $9.3995
11/08/2011, $10.2, 272060, $10.22, $10.28, $9.81
11/03/2011, $10.2, 181687, $10.1, $10.2, $9.82
10/31/2011, $10.3, 121386, $10.66, $10.85, $10.09
10/26/2011, $10.18, 142440, $10.55, $10.64, $9.75
10/21/2011, $9.5224, 51396, $9.39, $9.67, $9.29
10/18/2011, $9.15, 92344, $8.79, $9.29, $8.6
10/13/2011, $8.72, 111627, $8.92, $8.94, $8.58
10/10/2011, $8.81, 73856, $8.68, $9.08, $7.8
10/05/2011, $7.96, 110396, $7.41, $8.01, $7.41
09/30/2011, $8.03, 168101, $8.36, $8.56, $7.95
09/27/2011, $9.14, 129987, $8.86, $9.5, $8.86
09/22/2011, $8.5, 144112, $8.85, $8.9, $8.34
09/19/2011, $10.07, 102236, $10.09, $10.37, $9.86
09/14/2011, $9.4, 76499, $9.22, $9.56, $8.96
09/09/2011, $9.53, 144474, $9.89, $9.91, $9.42
09/06/2011, $9.16, 110232, $8.96, $9.19, $8.8
08/31/2011, $9.72, 101796, $9.62, $9.82, $9.52
08/26/2011, $9.08, 74119, $8.79, $9.2, $8.64
08/23/2011, $8.99, 82021, $8.64, $9.01, $8.62
08/18/2011, $8.98, 150591, $8.99, $9.04, $8.5
08/15/2011, $9.96, 116281, $9.46, $9.97, $9.43
08/10/2011, $8.84, 240151, $9.09, $9.23, $8.5
08/05/2011, $9.13, 241539, $9.6, $9.62, $8.62
08/02/2011, $10.07, 186914, $10.8, $10.8, $10.04
07/28/2011, $11.07, 50243, $11.11, $11.4, $11
07/25/2011, $11.88, 86775, $11.8, $12.01, $11.731
07/20/2011, $11.82, 118033, $11.85, $11.95, $11.75
07/15/2011, $11.99, 87599, $11.95, $12.03, $11.81
07/12/2011, $11.86, 80810, $11.83, $12.08, $11.67
07/07/2011, $12.7, 159445, $12.75, $12.96, $12.62
07/01/2011, $11.51, 71548, $11.47, $11.55, $11.28
06/28/2011, $10.99, 174299, $10.55, $11.04, $10.48
06/23/2011, $11.32, 309898, $10.94, $11.35, $10.51
06/20/2011, $11.59, 217690, $11.76, $11.85, $11.23
06/15/2011, $12.49, 200773, $12.74, $13.1, $12.25
06/10/2011, $12.82, 123480, $13.22, $13.34, $12.755
06/07/2011, $13.57, 68452, $13.65, $13.77, $13.43
06/02/2011, $14.52, 173008, $14.81, $14.91, $14.16
05/27/2011, $14.37, 179419, $13.82, $14.41, $13.74
05/24/2011, $13.33, 96375, $13.31, $13.421, $13.06
05/19/2011, $12.89, 66564, $12.97, $13.22, $12.79
05/16/2011, $12.83, 192701, $13, $13.26, $12.68
05/11/2011, $13.45, 144308, $13.98, $14.03, $13.35
05/06/2011, $12.66, 244710, $12.58, $12.93, $12.47
05/03/2011, $13.48, 213096, $14.31, $14.32, $13.22
04/28/2011, $14.61, 250904, $14.31, $14.63, $14.2
04/25/2011, $14, 92718, $13.92, $14.02, $13.65
04/19/2011, $13.64, 112121, $13.82, $13.8299, $13.5
04/14/2011, $14.315, 159510, $14.07, $14.49, $14.02
04/11/2011, $15.05, 184878, $15.44, $15.47, $14.88
04/06/2011, $15.59, 272398, $15.8, $15.82, $15.25
04/01/2011, $15.13, 198031, $15.37, $15.5, $15.04
03/29/2011, $14.83, 217534, $14.78, $14.97, $14.56
03/24/2011, $13.89, 109753, $14.16, $14.16, $13.82
03/21/2011, $14.1, 326661, $13.74, $14.39, $13.63
03/16/2011, $13.19, 286321, $13.37, $13.8, $13.07
03/11/2011, $13.37, 588582, $13.59, $13.82, $12.94
03/08/2011, $15.02, 463170, $15.04, $15.36, $14.8
03/03/2011, $14.48, 248004, $14.38, $14.59, $14.21
02/28/2011, $14.56, 296047, $14.37, $14.61, $14.16
02/23/2011, $13.72, 435612, $13.76, $13.77, $13.41
02/17/2011, $15.18, 363738, $15, $15.37, $14.94
02/14/2011, $15.21, 454555, $15.27, $15.5, $14.95
02/09/2011, $14.95, 545590, $14.96, $15.13, $14.7
02/04/2011, $13.53, 535914, $13.3, $13.5675, $13.23
02/01/2011, $13.39, 1187301, $12.13, $13.46, $12.13
01/27/2011, $13.44, 1121836, $14, $14.05, $13.11
01/24/2011, $14.29, 272429, $14.32, $14.41, $13.95
01/20/2011, $14.47, 581793, $14.38, $14.54, $13.77